Filter Transmission
Reference:
Linear
wavelength
60.000,207.821,217.877,221.229,234.636,241.340,251.396,264.804,288.268,325.139,365.363,385.474,418.994,439.106,465.921,492.737,522.905,556.424,600.000,630.167,683.798,713.966,754.189,801.117,841.340,901.675,962.011,1015.642,1069.273,1116.201,1183.240,1220.111,1303.910,1407.821,1505.027,1598.882,1702.793,1826.815,1940.782,2078.212,2272.625,2400.000,2500.558
0.0,0.00123,0.02663,0.04638,0.83932,0.87601,0.90705,0.91834,0.92116,0.92116,0.92962,0.92680,0.92962,0.92680,0.92680,0.92962,0.92398,0.92680,0.93245,0.92962,0.92962,0.92962,0.93527,0.93527,0.93245,0.92962,0.92962,0.93527,0.94091,0.94373,0.94373,0.94091,0.93809,0.93809,0.93809,0.94373,0.94938,0.95220,0.95220,0.94938,0.94373,0.93527,0.93245
